stair.thisTrialN,stair.stepSize,stair.intensity,fixation.started,grating.started,key_resp.started,fixation.stopped,grating.stopped,corrAns,tilt,key_resp.corr,stair.response,key_resp.rt,participant,session,date,expName,psychopyVersion,frameRate,
0,2,10.0,13.008569399999942,13.48184880000008,13.48184880000008,13.509365999999773,13.792482899999868,left,-10.0,1,1,5.623436300000321,307387,001,2023-09-06_23h31.07.459,adaptivestaircase,2023.1.3,59.949738139528954,
1,2,8.0,19.125802999999905,19.625496699999985,19.625496699999985,19.625496699999985,19.9250020999998,right,8.0,1,1,0.8854596999999558,307387,001,2023-09-06_23h31.07.459,adaptivestaircase,2023.1.3,59.949738139528954,
2,2,6.0,20.54204299999992,21.04157320000013,21.04157320000013,21.04157320000013,21.34161559999984,left,-6.0,1,1,0.5530295000003207,307387,001,2023-09-06_23h31.07.459,adaptivestaircase,2023.1.3,59.949738139528954,
3,2,4.0,21.6252728999998,22.125381899999866,22.125381899999866,22.125381899999866,22.425155800000084,left,-4.0,1,1,0.839358600000196,307387,001,2023-09-06_23h31.07.459,adaptivestaircase,2023.1.3,59.949738139528954,
4,2,2.0,22.991337999999814,23.49217060000001,23.49217060000001,23.49217060000001,23.79149069999994,right,2.0,1,1,1.0818944000002375,307387,001,2023-09-06_23h31.07.459,adaptivestaircase,2023.1.3,59.949738139528954,
5,1,1.0,24.591178799999852,25.091604199999892,25.091604199999892,25.091604199999892,25.39130010000008,left,-1.0,0,0,0.7660326000004716,307387,001,2023-09-06_23h31.07.459,adaptivestaircase,2023.1.3,59.949738139528954,
6,1,2.0,25.8741129,26.374344100000144,26.374344100000144,26.374344100000144,26.674648599999728,left,-2.0,1,1,0.7499358000000029,307387,001,2023-09-06_23h31.07.459,adaptivestaircase,2023.1.3,59.949738139528954,
7,1,2.0,27.14106619999984,27.640753300000142,27.640753300000142,27.640753300000142,27.941031999999723,left,-2.0,1,1,0.829910800000107,307387,001,2023-09-06_23h31.07.459,adaptivestaircase,2023.1.3,59.949738139528954,
8,1,2.0,28.490619100000004,28.99049990000003,28.99049990000003,28.99049990000003,29.290371199999754,right,2.0,1,1,0.673407700000098,307387,001,2023-09-06_23h31.07.459,adaptivestaircase,2023.1.3,59.949738139528954,
9,1,1.0,29.69032960000004,30.190413700000136,30.190413700000136,30.190413700000136,30.490299099999902,left,-1.0,1,1,0.626691700000265,307387,001,2023-09-06_23h31.07.459,adaptivestaircase,2023.1.3,59.949738139528954,
10,1,1.0,30.840521199999785,31.34018449999985,31.34018449999985,31.34018449999985,31.64013739999973,right,1.0,1,1,0.8299931000001379,307387,001,2023-09-06_23h31.07.459,adaptivestaircase,2023.1.3,59.949738139528954,
11,0.5,1.0,32.19003160000011,32.69005809999999,32.69005809999999,32.69005809999999,32.99002459999974,right,1.0,0,0,0.6018017000001237,307387,001,2023-09-06_23h31.07.459,adaptivestaircase,2023.1.3,59.949738139528954,
12,0.5,1.5,33.323237699999936,33.8234867000001,33.8234867000001,33.8234867000001,34.12334920000012,left,-1.5,1,1,1.165555999999924,307387,001,2023-09-06_23h31.07.459,adaptivestaircase,2023.1.3,59.949738139528954,
13,0.5,1.5,35.0067368,35.50623199999973,35.50623199999973,35.50623199999973,35.80652680000003,left,-1.5,1,1,0.8471152000001894,307387,001,2023-09-06_23h31.07.459,adaptivestaircase,2023.1.3,59.949738139528954,
14,0.5,1.5,36.37287609999976,36.87278179999976,36.87278179999976,36.87278179999976,37.17292180000004,left,-1.5,0,0,0.5340711999997438,307387,001,2023-09-06_23h31.07.459,adaptivestaircase,2023.1.3,59.949738139528954,
15,0.5,2.0,37.43973129999995,37.92311319999999,37.92311319999999,37.939316399999825,38.222954299999856,left,-2.0,0,0,0.7747466000000713,307387,001,2023-09-06_23h31.07.459,adaptivestaircase,2023.1.3,59.949738139528954,
16,0.5,2.5,38.72170359999973,39.20614350000005,39.20614350000005,39.22243040000012,39.50571349999973,right,2.5,1,1,0.7758108000002721,307387,001,2023-09-06_23h31.07.459,adaptivestaircase,2023.1.3,59.949738139528954,
17,0.5,2.5,40.006158700000015,40.489032399999815,40.489032399999815,40.505758400000104,40.789248099999895,right,2.5,1,1,0.7141538999999284,307387,001,2023-09-06_23h31.07.459,adaptivestaircase,2023.1.3,59.949738139528954,
18,0.5,2.5,41.222312800000054,41.70564149999973,41.70564149999973,41.72249499999998,42.00536280000006,left,-2.5,1,1,0.7724358999998913,307387,001,2023-09-06_23h31.07.459,adaptivestaircase,2023.1.3,59.949738139528954,
19,0.5,2.0,42.50578519999999,43.005296199999975,43.005296199999975,43.005296199999975,43.30569250000008,right,2.0,1,1,0.8075288,307387,001,2023-09-06_23h31.07.459,adaptivestaircase,2023.1.3,59.949738139528954,
20,0.5,2.0,43.838965800000096,44.33883919999971,44.33883919999971,44.33883919999971,44.6382980999997,left,-2.0,1,1,0.5800705999999991,307387,001,2023-09-06_23h31.07.459,adaptivestaircase,2023.1.3,59.949738139528954,
21,0.5,2.0,44.93838479999977,45.4377999999997,45.4377999999997,45.4377999999997,45.7379934999999,left,-2.0,1,1,0.7774552000000767,307387,001,2023-09-06_23h31.07.459,adaptivestaircase,2023.1.3,59.949738139528954,
22,0.5,1.5,46.237751899999694,46.720795299999736,46.720795299999736,46.73775579999983,47.0212434,left,-1.5,1,1,0.7525230000001102,307387,001,2023-09-06_23h31.07.459,adaptivestaircase,2023.1.3,59.949738139528954,
23,0.5,1.5,47.50399960000004,47.98790109999982,47.98790109999982,48.00401289999991,48.287150999999994,left,-1.5,1,1,0.7915580000003501,307387,001,2023-09-06_23h31.07.459,adaptivestaircase,2023.1.3,59.949738139528954,
24,0.5,1.5,48.803818299999875,49.286996400000135,49.286996400000135,49.30339389999972,49.587472400000024,left,-1.5,1,1,0.593942099999822,307387,001,2023-09-06_23h31.07.459,adaptivestaircase,2023.1.3,59.949738139528954,
25,0.5,1.0,49.90342980000014,50.38741630000004,50.38741630000004,50.40387839999994,50.68666459999986,left,-1.0,1,1,1.1642452000000958,307387,001,2023-09-06_23h31.07.459,adaptivestaircase,2023.1.3,59.949738139528954,
26,0.5,1.0,51.56991519999974,52.06974600000012,52.06974600000012,52.06974600000012,52.369726699999774,right,1.0,0,0,1.1355063999999402,307387,001,2023-09-06_23h31.07.459,adaptivestaircase,2023.1.3,59.949738139528954,
27,0.5,1.5,53.23623859999998,53.72092500000008,53.72092500000008,53.73727800000006,54.02079240000012,left,-1.5,1,1,1.8493432000000212,307387,001,2023-09-06_23h31.07.459,adaptivestaircase,2023.1.3,59.949738139528954,
28,0.5,1.5,55.587268199999926,56.08681810000007,56.08681810000007,56.08681810000007,56.38670550000006,left,-1.5,1,1,0.6690337000004547,307387,001,2023-09-06_23h31.07.459,adaptivestaircase,2023.1.3,59.949738139528954,
29,0.5,1.5,56.78729799999974,57.28666669999984,57.28666669999984,57.28666669999984,57.58662419999973,right,1.5,0,0,0.4010991000004651,307387,001,2023-09-06_23h31.07.459,adaptivestaircase,2023.1.3,59.949738139528954,
30,0.5,2.0,57.720015500000045,58.2198355999999,58.2198355999999,58.2198355999999,58.51983459999974,right,2.0,1,1,0.8732847000001129,307387,001,2023-09-06_23h31.07.459,adaptivestaircase,2023.1.3,59.949738139528954,
31,0.5,2.0,59.12011419999999,59.61964769999986,59.61964769999986,59.61964769999986,59.92006050000009,left,-2.0,0,0,0.478463400000237,307387,001,2023-09-06_23h31.07.459,adaptivestaircase,2023.1.3,59.949738139528954,
32,0.5,2.5,60.11949139999979,60.61966540000003,60.61966540000003,60.61966540000003,60.920336099999986,left,-2.5,1,1,1.369244400000298,307387,001,2023-09-06_23h31.07.459,adaptivestaircase,2023.1.3,59.949738139528954,
33,0.5,2.5,62.019636499999706,62.51931579999973,62.51931579999973,62.51931579999973,62.8191711999998,left,-2.5,1,1,3.6036221999997906,307387,001,2023-09-06_23h31.07.459,adaptivestaircase,2023.1.3,59.949738139528954,
34,0.5,2.5,66.15217780000012,66.6358409999998,66.6358409999998,66.65210849999994,66.93537259999994,right,2.5,1,1,1.2113842000003388,307387,001,2023-09-06_23h31.07.459,adaptivestaircase,2023.1.3,59.949738139528954,
35,0.5,2.0,67.86912529999972,68.36855569999989,68.36855569999989,68.36855569999989,68.66861349999999,right,2.0,1,1,0.7282067999999526,307387,001,2023-09-06_23h31.07.459,adaptivestaircase,2023.1.3,59.949738139528954,
36,0.5,2.0,69.1191988999999,69.61869399999978,69.61869399999978,69.61869399999978,69.9181853,right,2.0,1,1,0.8132631999997102,307387,001,2023-09-06_23h31.07.459,adaptivestaircase,2023.1.3,59.949738139528954,
37,0.5,2.0,70.45198900000014,70.95146509999995,70.95146509999995,70.96786199999997,71.25152209999987,right,2.0,0,0,1.2616579000000456,307387,001,2023-09-06_23h31.07.459,adaptivestaircase,2023.1.3,59.949738139528954,
38,0.5,2.5,72.23515709999992,72.73511449999978,72.73511449999978,72.73511449999978,73.03502470000012,left,-2.5,1,1,0.6332550000001902,307387,001,2023-09-06_23h31.07.459,adaptivestaircase,2023.1.3,59.949738139528954,
39,0.5,2.5,73.38492259999975,73.88474429999997,73.88474429999997,73.88474429999997,74.18426049999971,right,2.5,1,1,0.8085829999999987,307387,001,2023-09-06_23h31.07.459,adaptivestaircase,2023.1.3,59.949738139528954,
40,0.5,2.5,74.71780099999978,75.21798069999977,75.21798069999977,75.21798069999977,75.5179321999999,right,2.5,1,1,0.6319588000001204,307387,001,2023-09-06_23h31.07.459,adaptivestaircase,2023.1.3,59.949738139528954,
41,0.5,2.0,75.86769830000003,76.36745930000006,76.36745930000006,76.36745930000006,76.66733339999973,right,2.0,1,1,0.5938274000000092,307387,001,2023-09-06_23h31.07.459,adaptivestaircase,2023.1.3,59.949738139528954,
42,0.5,2.0,76.98439430000008,77.48400179999999,77.48400179999999,77.48400179999999,77.78439089999983,right,2.0,1,1,0.9816708000003018,307387,001,2023-09-06_23h31.07.459,adaptivestaircase,2023.1.3,59.949738139528954,
43,0.5,2.0,78.48434390000011,78.98451679999971,78.98451679999971,78.98451679999971,79.28366800000003,right,2.0,1,1,0.47185250000029555,307387,001,2023-09-06_23h31.07.459,adaptivestaircase,2023.1.3,59.949738139528954,
44,0.5,1.5,79.48361459999978,79.9839965000001,79.9839965000001,79.9839965000001,80.28354089999993,left,-1.5,1,1,0.4933596000005309,307387,001,2023-09-06_23h31.07.459,adaptivestaircase,2023.1.3,59.949738139528954,
45,0.5,1.5,80.50023229999988,81.00009649999993,81.00009649999993,81.00009649999993,81.29996600000004,left,-1.5,1,1,0.36732019999999466,307387,001,2023-09-06_23h31.07.459,adaptivestaircase,2023.1.3,59.949738139528954,
46,0.5,1.5,81.40047319999985,81.9000062,81.9000062,81.9000062,82.20007669999995,right,1.5,1,1,0.7815211000001909,307387,001,2023-09-06_23h31.07.459,adaptivestaircase,2023.1.3,59.949738139528954,
47,0.5,1.0,82.69985619999989,83.1994166999998,83.1994166999998,83.1994166999998,83.49867399999994,right,1.0,0,0,0.44712509999999384,307387,001,2023-09-06_23h31.07.459,adaptivestaircase,2023.1.3,59.949738139528954,
48,0.5,1.5,83.66576559999976,84.16630159999977,84.16630159999977,84.16630159999977,84.46592939999982,right,1.5,0,0,0.5315482999999404,307387,001,2023-09-06_23h31.07.459,adaptivestaircase,2023.1.3,59.949738139528954,
49,0.5,2.0,84.7164614999997,85.2157887999997,85.2157887999997,85.2157887999997,85.51547189999974,right,2.0,1,1,0.7415220000002591,307387,001,2023-09-06_23h31.07.459,adaptivestaircase,2023.1.3,59.949738139528954,
50,0.5,2.0,85.98225079999975,86.48257960000001,86.48257960000001,86.48257960000001,86.78230350000013,right,2.0,1,1,0.6464781000004223,307387,001,2023-09-06_23h31.07.459,adaptivestaircase,2023.1.3,59.949738139528954,
51,0.5,2.0,87.14841369999976,87.64848649999976,87.64848649999976,87.64848649999976,87.94874699999991,left,-2.0,1,1,0.7230552000000898,307387,001,2023-09-06_23h31.07.459,adaptivestaircase,2023.1.3,59.949738139528954,
52,0.5,1.5,88.39833069999986,88.89783140000009,88.89783140000009,88.89783140000009,89.19848499999989,left,-1.5,1,1,0.5778902000001835,307387,001,2023-09-06_23h31.07.459,adaptivestaircase,2023.1.3,59.949738139528954,
53,0.5,1.5,89.4980628999997,89.98178869999992,89.98178869999992,89.99823419999984,90.2823472,left,-1.5,1,1,0.6862903000001097,307387,001,2023-09-06_23h31.07.459,adaptivestaircase,2023.1.3,59.949738139528954,
54,0.5,1.5,90.69878459999973,91.19921190000014,91.19921190000014,91.19921190000014,91.4986743999998,left,-1.5,1,1,1.1414974999997867,307387,001,2023-09-06_23h31.07.459,adaptivestaircase,2023.1.3,59.949738139528954,
55,0.5,1.0,92.36526619999995,92.86483039999985,92.86483039999985,92.86483039999985,93.16547649999984,right,1.0,1,1,0.8815868000001501,307387,001,2023-09-06_23h31.07.459,adaptivestaircase,2023.1.3,59.949738139528954,
56,0.5,1.0,93.76536899999974,94.2651020999997,94.2651020999997,94.2651020999997,94.56531519999999,left,-1.0,1,1,0.5100496000000021,307387,001,2023-09-06_23h31.07.459,adaptivestaircase,2023.1.3,59.949738139528954,
57,0.5,1.0,94.79813289999993,95.28155849999985,95.28155849999985,95.29848510000011,95.59722109999984,left,-1.0,1,1,0.6856742000004488,307387,001,2023-09-06_23h31.07.459,adaptivestaircase,2023.1.3,59.949738139528954,
58,0.5,1.0,95.99768589999985,96.48108909999974,96.48108909999974,96.49781780000012,96.7810485,left,-1.0,1,1,0.5511188000000402,307387,001,2023-09-06_23h31.07.459,adaptivestaircase,2023.1.3,59.949738139528954,
59,0.5,1.0,97.06387169999971,97.54715709999982,97.54715709999982,97.56362970000009,97.8478540000001,left,-1.0,1,1,0.6575861000001169,307387,001,2023-09-06_23h31.07.459,adaptivestaircase,2023.1.3,59.949738139528954,
60,0.5,1.0,98.23131079999985,98.73142419999976,98.73142419999976,98.73142419999976,99.03105749999986,left,-1.0,1,1,0.7761135999999169,307387,001,2023-09-06_23h31.07.459,adaptivestaircase,2023.1.3,59.949738139528954,
61,0.5,1.0,99.53127050000012,100.0146292999998,100.0146292999998,100.03133279999975,100.3143912999999,right,1.0,1,1,0.5193661000002976,307387,001,2023-09-06_23h31.07.459,adaptivestaircase,2023.1.3,59.949738139528954,
62,0.5,1.0,100.56478459999971,101.06396450000011,101.06396450000011,101.06396450000011,101.36433039999974,left,-1.0,1,1,0.6684449000003951,307387,001,2023-09-06_23h31.07.459,adaptivestaircase,2023.1.3,59.949738139528954,
63,0.5,1.0,101.764365,102.26397569999972,102.26397569999972,102.26397569999972,102.56434239999999,right,1.0,0,0,0.8808952000003956,307387,001,2023-09-06_23h31.07.459,adaptivestaircase,2023.1.3,59.949738139528954,
64,0.5,1.5,103.1637854999999,103.66439009999976,103.66439009999976,103.66439009999976,103.96369409999988,right,1.5,1,1,0.7753220000004148,307387,001,2023-09-06_23h31.07.459,adaptivestaircase,2023.1.3,59.949738139528954,
65,0.5,1.5,104.46403789999977,104.96403520000013,104.96403520000013,104.96403520000013,105.26345110000011,left,-1.5,0,0,0.9597831000000951,307387,001,2023-09-06_23h31.07.459,adaptivestaircase,2023.1.3,59.949738139528954,
66,0.5,2.0,105.94665189999978,106.44664280000006,106.44664280000006,106.44664280000006,106.74693720000005,right,2.0,1,1,0.8018092000002071,307387,001,2023-09-06_23h31.07.459,adaptivestaircase,2023.1.3,59.949738139528954,
67,0.5,2.0,107.28010050000012,107.78019919999997,107.78019919999997,107.78019919999997,108.08007259999977,right,2.0,1,1,0.5581849000000147,307387,001,2023-09-06_23h31.07.459,adaptivestaircase,2023.1.3,59.949738139528954,
68,0.5,2.0,108.36347669999986,108.86293569999998,108.86293569999998,108.86293569999998,109.16284929999983,left,-2.0,1,1,0.6585324000002402,307387,001,2023-09-06_23h31.07.459,adaptivestaircase,2023.1.3,59.949738139528954,
69,0.5,1.5,109.5462462999999,110.04644559999997,110.04644559999997,110.04644559999997,110.34606759999997,left,-1.5,1,1,0.9542568000001665,307387,001,2023-09-06_23h31.07.459,adaptivestaircase,2023.1.3,59.949738139528954,
70,0.5,1.5,111.02971769999976,111.52923749999991,111.52923749999991,111.52923749999991,111.82920449999983,right,1.5,1,1,0.7853620000005321,307387,001,2023-09-06_23h31.07.459,adaptivestaircase,2023.1.3,59.949738139528954,
71,0.5,1.5,112.34631669999999,112.82911779999995,112.82911779999995,112.84618240000009,113.12950999999975,left,-1.5,1,1,0.637853300000188,307387,001,2023-09-06_23h31.07.459,adaptivestaircase,2023.1.3,59.949738139528954,
72,0.5,1.0,113.49658090000003,113.99555539999983,113.99555539999983,113.99555539999983,114.29557019999993,left,-1.0,1,1,0.9038429000001997,307387,001,2023-09-06_23h31.07.459,adaptivestaircase,2023.1.3,59.949738139528954,
73,0.5,1.0,114.92918150000014,115.42954740000005,115.42954740000005,115.42954740000005,115.72877440000002,right,1.0,1,1,0.3814676000001782,307387,001,2023-09-06_23h31.07.459,adaptivestaircase,2023.1.3,59.949738139528954,
74,0.5,1.0,115.8290093999999,116.3287121999997,116.3287121999997,116.3287121999997,116.62891230000014,left,-1.0,0,0,0.9132382000002508,307387,001,2023-09-06_23h31.07.459,adaptivestaircase,2023.1.3,59.949738139528954,
75,0.5,1.5,117.26178870000012,117.76170430000002,117.76170430000002,117.76170430000002,118.06192319999991,left,-1.5,1,1,0.5246608000002198,307387,001,2023-09-06_23h31.07.459,adaptivestaircase,2023.1.3,59.949738139528954,
76,0.5,1.5,118.3117500999997,118.81182069999977,118.81182069999977,118.81182069999977,119.1115362999999,left,-1.5,1,1,0.4215559999997822,307387,001,2023-09-06_23h31.07.459,adaptivestaircase,2023.1.3,59.949738139528954,
77,0.5,1.5,119.26159370000005,119.76165919999994,119.76165919999994,119.76165919999994,120.06162489999997,right,1.5,1,1,0.7960037000002558,307387,001,2023-09-06_23h31.07.459,adaptivestaircase,2023.1.3,59.949738139528954,
78,0.5,1.0,120.57811899999979,121.07795020000003,121.07795020000003,121.07795020000003,121.37822729999971,left,-1.0,1,1,1.2820968999999423,307387,001,2023-09-06_23h31.07.459,adaptivestaircase,2023.1.3,59.949738139528954,
79,0.5,1.0,122.3770826,122.87687969999979,122.87687969999979,122.87687969999979,123.17733649999991,left,-1.0,1,1,0.5244216000005508,307387,001,2023-09-06_23h31.07.459,adaptivestaircase,2023.1.3,59.949738139528954,
80,0.5,1.0,123.42667410000013,123.91023059999998,123.91023059999998,123.9271647999999,124.21051110000008,right,1.0,0,0,0.9069213000002492,307387,001,2023-09-06_23h31.07.459,adaptivestaircase,2023.1.3,59.949738139528954,
81,0.5,1.5,124.84331979999979,125.34330460000001,125.34330460000001,125.34330460000001,125.64307239999971,right,1.5,1,1,0.6576443000003565,307387,001,2023-09-06_23h31.07.459,adaptivestaircase,2023.1.3,59.949738139528954,
82,0.5,1.5,126.02681069999971,126.52661429999989,126.52661429999989,126.52661429999989,126.82616710000002,right,1.5,1,1,0.7228257000001577,307387,001,2023-09-06_23h31.07.459,adaptivestaircase,2023.1.3,59.949738139528954,
83,0.5,1.5,127.27711289999979,127.77748539999993,127.77748539999993,127.77748539999993,128.07695289999992,right,1.5,1,1,0.679942100000062,307387,001,2023-09-06_23h31.07.459,adaptivestaircase,2023.1.3,59.949738139528954,
84,0.5,1.0,128.47711759999993,128.97714319999977,128.97714319999977,128.97714319999977,129.2768318999997,right,1.0,1,1,0.72075040000027,307387,001,2023-09-06_23h31.07.459,adaptivestaircase,2023.1.3,59.949738139528954,
85,0.5,1.0,129.72714959999985,130.22683830000005,130.22683830000005,130.22683830000005,130.5267445999998,right,1.0,1,1,0.9359731000004103,307387,001,2023-09-06_23h31.07.459,adaptivestaircase,2023.1.3,59.949738139528954,
86,0.5,1.0,131.19332299999996,131.6935985,131.6935985,131.6935985,131.99334509999971,right,1.0,1,1,0.7750147000001562,307387,001,2023-09-06_23h31.07.459,adaptivestaircase,2023.1.3,59.949738139528954,
87,0.5,1.0,132.4930261999998,132.99301669999977,132.99301669999977,132.99301669999977,133.29295319999983,right,1.0,1,1,0.4548616000001857,307387,001,2023-09-06_23h31.07.459,adaptivestaircase,2023.1.3,59.949738139528954,
88,0.5,1.0,133.47664729999997,133.9761669999998,133.9761669999998,133.9761669999998,134.2761018000001,right,1.0,1,1,0.8574892999999975,307387,001,2023-09-06_23h31.07.459,adaptivestaircase,2023.1.3,59.949738139528954,
89,0.5,1.0,134.85988039999984,135.35957099999996,135.35957099999996,135.35957099999996,135.65957979999985,right,1.0,1,1,0.4542148000000452,307387,001,2023-09-06_23h31.07.459,adaptivestaircase,2023.1.3,59.949738139528954,
90,0.5,1.0,135.84263099999998,136.34270070000002,136.34270070000002,136.34270070000002,136.64241189999984,left,-1.0,1,1,0.8876276999999391,307387,001,2023-09-06_23h31.07.459,adaptivestaircase,2023.1.3,59.949738139528954,
91,0.5,1.0,137.25909739999997,137.75904579999997,137.75904579999997,137.75904579999997,138.05906499999992,left,-1.0,1,1,1.1762751000001117,307387,001,2023-09-06_23h31.07.459,adaptivestaircase,2023.1.3,59.949738139528954,
92,0.5,1.0,138.9587806999998,139.45903809999982,139.45903809999982,139.45903809999982,139.75918580000007,left,-1.0,1,1,0.7907694000000447,307387,001,2023-09-06_23h31.07.459,adaptivestaircase,2023.1.3,59.949738139528954,
93,0.5,1.0,140.27453659999992,140.75828999999976,140.75828999999976,140.77438089999987,141.05845259999978,left,-1.0,1,1,0.4688833000000159,307387,001,2023-09-06_23h31.07.459,adaptivestaircase,2023.1.3,59.949738139528954,
94,0.5,1.0,141.25846890000003,141.758515,141.758515,141.758515,142.05834270000014,right,1.0,0,0,0.49622550000003685,307387,001,2023-09-06_23h31.07.459,adaptivestaircase,2023.1.3,59.949738139528954,
95,0.5,1.5,142.27502030000005,142.77512709999974,142.77512709999974,142.77512709999974,143.07550899999978,left,-1.5,1,1,1.0004623000004358,307387,001,2023-09-06_23h31.07.459,adaptivestaircase,2023.1.3,59.949738139528954,
96,0.5,1.5,143.80814329999976,144.30856229999972,144.30856229999972,144.30856229999972,144.6080750000001,left,-1.5,1,1,0.6684636999998474,307387,001,2023-09-06_23h31.07.459,adaptivestaircase,2023.1.3,59.949738139528954,
97,0.5,1.5,145.0080552999998,145.5080782,145.5080782,145.5080782,145.80795249999983,right,1.5,0,0,0.8538951000000452,307387,001,2023-09-06_23h31.07.459,adaptivestaircase,2023.1.3,59.949738139528954,
98,0.5,2.0,146.39112699999987,146.8750141999999,146.8750141999999,146.89111830000002,147.17473889999974,right,2.0,0,0,0.5294086000003517,307387,001,2023-09-06_23h31.07.459,adaptivestaircase,2023.1.3,59.949738139528954,
99,0.5,2.5,147.4242948000001,147.92427799999996,147.92427799999996,147.92427799999996,148.22457219999978,left,-2.5,1,1,0.7803993000002265,307387,001,2023-09-06_23h31.07.459,adaptivestaircase,2023.1.3,59.949738139528954,
100,0.5,2.5,148.72450619999972,149.22476319999987,149.22476319999987,149.22476319999987,149.52457520000007,right,2.5,1,1,0.7311910000003081,307387,001,2023-09-06_23h31.07.459,adaptivestaircase,2023.1.3,59.949738139528954,
101,0.5,2.5,149.97407859999976,150.47468219999973,150.47468219999973,150.47468219999973,150.77385479999975,left,-2.5,1,1,0.8198299000000588,307387,001,2023-09-06_23h31.07.459,adaptivestaircase,2023.1.3,59.949738139528954,
102,0.5,2.0,151.32417799999985,151.82372290000012,151.82372290000012,151.82372290000012,152.12413879999986,left,-2.0,1,1,0.6782471000001351,307387,001,2023-09-06_23h31.07.459,adaptivestaircase,2023.1.3,59.949738139528954,
103,0.5,2.0,152.5238085000001,153.02394300000014,153.02394300000014,153.02394300000014,153.32349769999973,left,-2.0,1,1,0.7327218999998877,307387,001,2023-09-06_23h31.07.459,adaptivestaircase,2023.1.3,59.949738139528954,
104,0.5,2.0,153.77343500000006,154.27401680000003,154.27401680000003,154.27401680000003,154.5737623,left,-2.0,1,1,0.5839257000002362,307387,001,2023-09-06_23h31.07.459,adaptivestaircase,2023.1.3,59.949738139528954,
105,0.5,1.5,154.8905365999999,155.3900891999997,155.3900891999997,155.3900891999997,155.6903557999999,right,1.5,1,1,0.6806210999998257,307387,001,2023-09-06_23h31.07.459,adaptivestaircase,2023.1.3,59.949738139528954,
106,0.5,1.5,156.09055510000007,156.59046739999985,156.59046739999985,156.59046739999985,156.89046099999996,right,1.5,0,0,0.7441657999997915,307387,001,2023-09-06_23h31.07.459,adaptivestaircase,2023.1.3,59.949738139528954,
107,0.5,2.0,157.3563162999999,157.85635079999975,157.85635079999975,157.85635079999975,158.157866,right,2.0,1,1,0.8050259000001461,307387,001,2023-09-06_23h31.07.459,adaptivestaircase,2023.1.3,59.949738139528954,
108,0.5,2.0,158.68921009999985,159.17276309999988,159.17276309999988,159.1895239999999,159.4731213,left,-2.0,1,1,0.6398212000003696,307387,001,2023-09-06_23h31.07.459,adaptivestaircase,2023.1.3,59.949738139528954,
109,0.5,2.0,159.83943499999987,160.33922819999998,160.33922819999998,160.33922819999998,160.6399263999997,right,2.0,1,1,0.7963305000002947,307387,001,2023-09-06_23h31.07.459,adaptivestaircase,2023.1.3,59.949738139528954,
110,0.5,1.5,161.1559782999998,161.65575260000014,161.65575260000014,161.65575260000014,161.95601979999992,right,1.5,1,1,0.8947419999999511,307387,001,2023-09-06_23h31.07.459,adaptivestaircase,2023.1.3,59.949738139528954,
111,0.5,1.5,162.57280189999983,163.07263430000012,163.07263430000012,163.07263430000012,163.37259270000004,left,-1.5,1,1,0.7554058000000623,307387,001,2023-09-06_23h31.07.459,adaptivestaircase,2023.1.3,59.949738139528954,
112,0.5,1.5,163.8557353000001,164.3556751000001,164.3556751000001,164.3556751000001,164.65557360000003,left,-1.5,1,1,0.6541120000001683,307387,001,2023-09-06_23h31.07.459,adaptivestaircase,2023.1.3,59.949738139528954,
113,0.5,1.0,165.03870359999974,165.53878889999987,165.53878889999987,165.53878889999987,165.83887370000002,right,1.0,0,0,0.6913791000001765,307387,001,2023-09-06_23h31.07.459,adaptivestaircase,2023.1.3,59.949738139528954,
114,0.5,1.5,166.25548909999998,166.75503260000005,166.75503260000005,166.75503260000005,167.0549821999998,left,-1.5,1,1,0.6304141000000527,307387,001,2023-09-06_23h31.07.459,adaptivestaircase,2023.1.3,59.949738139528954,
115,0.5,1.5,167.40551079999977,167.9053033,167.9053033,167.9053033,168.20532830000002,left,-1.5,1,1,0.4373966000002838,307387,001,2023-09-06_23h31.07.459,adaptivestaircase,2023.1.3,59.949738139528954,
116,0.5,1.5,168.3715162999997,168.87142649999987,168.87142649999987,168.87142649999987,169.1714763,left,-1.5,1,1,0.44848880000017743,307387,001,2023-09-06_23h31.07.459,adaptivestaircase,2023.1.3,59.949738139528954,
117,0.5,1.0,169.3384332999999,169.8382031000001,169.8382031000001,169.8382031000001,170.1383166999999,right,1.0,0,0,0.3968783000000258,307387,001,2023-09-06_23h31.07.459,adaptivestaircase,2023.1.3,59.949738139528954,
118,0.5,1.5,170.2545538999998,170.75526349999973,170.75526349999973,170.75526349999973,171.0543948999998,right,1.5,0,0,0.39844840000023396,307387,001,2023-09-06_23h31.07.459,adaptivestaircase,2023.1.3,59.949738139528954,
119,0.5,2.0,171.17161420000002,171.6719248999998,171.6719248999998,171.6719248999998,171.97094609999976,left,-2.0,1,1,0.7600286000001688,307387,001,2023-09-06_23h31.07.459,adaptivestaircase,2023.1.3,59.949738139528954,
120,0.5,2.0,172.4546452999998,172.95430720000013,172.95430720000013,172.95430720000013,173.2543227000001,right,2.0,0,0,0.4312957000001916,307387,001,2023-09-06_23h31.07.459,adaptivestaircase,2023.1.3,59.949738139528954,
121,0.5,2.5,173.40410620000011,173.90437669999983,173.90437669999983,173.90437669999983,174.20510049999984,left,-2.5,1,1,0.6020413000001099,307387,001,2023-09-06_23h31.07.459,adaptivestaircase,2023.1.3,59.949738139528954,
122,0.5,2.5,174.53780959999995,175.03726030000007,175.03726030000007,175.03726030000007,175.33770259999983,left,-2.5,1,1,0.5679823000000397,307387,001,2023-09-06_23h31.07.459,adaptivestaircase,2023.1.3,59.949738139528954,
123,0.5,2.5,175.6371368,176.1378125000001,176.1378125000001,176.1378125000001,176.4374929999999,right,2.5,1,1,0.653541000000132,307387,001,2023-09-06_23h31.07.459,adaptivestaircase,2023.1.3,59.949738139528954,
124,0.5,2.0,176.8204823000001,177.32025059999978,177.32025059999978,177.32025059999978,177.62057079999977,left,-2.0,1,1,0.8351124000000709,307387,001,2023-09-06_23h31.07.459,adaptivestaircase,2023.1.3,59.949738139528954,
125,0.5,2.0,178.1872441999999,178.68716499999982,178.68716499999982,178.68716499999982,178.98700839999992,left,-2.0,1,1,0.4222437999997055,307387,001,2023-09-06_23h31.07.459,adaptivestaircase,2023.1.3,59.949738139528954,
126,0.5,2.0,179.13665029999993,179.6366478,179.6366478,179.6366478,179.93690930000002,right,2.0,1,1,0.6110272999999324,307387,001,2023-09-06_23h31.07.459,adaptivestaircase,2023.1.3,59.949738139528954,
127,0.5,1.5,180.27033239999992,180.7699090000001,180.7699090000001,180.7699090000001,181.06976889999987,right,1.5,1,1,0.5393386999999166,307387,001,2023-09-06_23h31.07.459,adaptivestaircase,2023.1.3,59.949738139528954,
128,0.5,1.5,181.3365647999999,181.83638710000014,181.83638710000014,181.83638710000014,182.1363535999999,left,-1.5,0,0,0.4737516000004689,307387,001,2023-09-06_23h31.07.459,adaptivestaircase,2023.1.3,59.949738139528954,
129,0.5,2.0,182.3362963999998,182.8362185000001,182.8362185000001,182.8362185000001,183.13648639999974,right,2.0,1,1,0.902824100000089,307387,001,2023-09-06_23h31.07.459,adaptivestaircase,2023.1.3,59.949738139528954,
130,0.5,2.0,183.76973719999978,184.2696404999997,184.2696404999997,184.2696404999997,184.5692810999999,left,-2.0,1,1,0.3826665999999932,307387,001,2023-09-06_23h31.07.459,adaptivestaircase,2023.1.3,59.949738139528954,
131,0.5,2.0,184.66995880000013,185.16929859999982,185.16929859999982,185.16929859999982,185.46923770000012,right,2.0,1,1,0.7054926000000705,307387,001,2023-09-06_23h31.07.459,adaptivestaircase,2023.1.3,59.949738139528954,
132,0.5,1.5,185.90292709999994,186.38614599999983,186.38614599999983,186.40238959999988,186.68580079999992,left,-1.5,1,1,0.37635499999987587,307387,001,2023-09-06_23h31.07.459,adaptivestaircase,2023.1.3,59.949738139528954,
133,0.5,1.5,186.78575139999975,187.28485749999982,187.28485749999982,187.28485749999982,187.58483750000005,left,-1.5,1,1,0.6473499000003358,307387,001,2023-09-06_23h31.07.459,adaptivestaircase,2023.1.3,59.949738139528954,
134,0.5,1.5,187.95185709999987,188.4512104999999,188.4512104999999,188.4512104999999,188.75171219999993,left,-1.5,1,1,0.7806082000001879,307387,001,2023-09-06_23h31.07.459,adaptivestaircase,2023.1.3,59.949738139528954,
135,0.5,1.0,189.2512554,189.7512185999999,189.7512185999999,189.7512185999999,190.0507831,left,-1.0,0,0,0.6680480000004536,307387,001,2023-09-06_23h31.07.459,adaptivestaircase,2023.1.3,59.949738139528954,
136,0.5,1.5,190.45128479999994,190.95145539999976,190.95145539999976,190.95145539999976,191.25084879999986,left,-1.5,1,1,0.5055606000000807,307387,001,2023-09-06_23h31.07.459,adaptivestaircase,2023.1.3,59.949738139528954,
137,0.5,1.5,191.48431789999995,191.96726919999992,191.96726919999992,191.98394180000014,192.26705859999993,left,-1.5,1,1,0.4507752000004075,307387,001,2023-09-06_23h31.07.459,adaptivestaircase,2023.1.3,59.949738139528954,
138,0.5,1.5,192.4507923000001,192.93411449999985,192.93411449999985,192.95062000000007,193.2342248,left,-1.5,1,1,0.45888730000024225,307387,001,2023-09-06_23h31.07.459,adaptivestaircase,2023.1.3,59.949738139528954,
139,0.5,1.0,193.41716129999986,193.90031950000002,193.90031950000002,193.91682409999976,194.20019520000005,right,1.0,0,0,0.46298460000025443,307387,001,2023-09-06_23h31.07.459,adaptivestaircase,2023.1.3,59.949738139528954,
140,0.5,1.5,194.3835568999998,194.86719270000003,194.86719270000003,194.88428269999986,195.16677200000004,right,1.5,1,1,0.5312568000003921,307387,001,2023-09-06_23h31.07.459,adaptivestaircase,2023.1.3,59.949738139528954,
141,0.5,1.5,195.41750490000004,195.91719759999978,195.91719759999978,195.91719759999978,196.21707519999973,right,1.5,1,1,0.4203842000001714,307387,001,2023-09-06_23h31.07.459,adaptivestaircase,2023.1.3,59.949738139528954,
142,0.5,1.5,196.36716130000013,196.84988239999984,196.84988239999984,196.86686969999982,197.14972099999977,left,-1.5,1,1,0.5498493000004601,307387,001,2023-09-06_23h31.07.459,adaptivestaircase,2023.1.3,59.949738139528954,
143,0.5,1.0,197.41661879999992,197.90019559999973,197.90019559999973,197.91651219999994,198.20002879999993,right,1.0,0,0,0.8370691000000079,307387,001,2023-09-06_23h31.07.459,adaptivestaircase,2023.1.3,59.949738139528954,
144,0.5,1.5,198.7665278999998,199.24990089999983,199.24990089999983,199.2664160999998,199.55035279999993,left,-1.5,1,1,0.6333517000002757,307387,001,2023-09-06_23h31.07.459,adaptivestaircase,2023.1.3,59.949738139528954,
145,0.5,1.5,199.90003089999982,200.39959850000014,200.39959850000014,200.39959850000014,200.70041450000008,right,1.5,1,1,0.6899482999997417,307387,001,2023-09-06_23h31.07.459,adaptivestaircase,2023.1.3,59.949738139528954,
146,0.5,1.5,201.1169544999998,201.61597870000014,201.61597870000014,201.61597870000014,201.9159351999997,right,1.5,1,1,0.4557279999999082,307387,001,2023-09-06_23h31.07.459,adaptivestaircase,2023.1.3,59.949738139528954,
147,0.5,1.0,202.09996730000012,202.58288790000006,202.58288790000006,202.60013019999997,202.88331040000003,right,1.0,0,0,0.5180546999999933,307387,001,2023-09-06_23h31.07.459,adaptivestaircase,2023.1.3,59.949738139528954,
148,0.5,1.5,203.13326599999982,203.61579189999975,203.61579189999975,203.63350889999992,203.91638220000004,left,-1.5,1,1,0.9974412000001394,307387,001,2023-09-06_23h31.07.459,adaptivestaircase,2023.1.3,59.949738139528954,
149,0.5,1.5,204.63250459999972,205.13237059999983,205.13237059999983,205.13237059999983,205.43292139999994,left,-1.5,0,0,0.4448797000000013,307387,001,2023-09-06_23h31.07.459,adaptivestaircase,2023.1.3,59.949738139528954,
150,0.5,2.0,205.59926529999984,206.08417120000013,206.08417120000013,206.0989983999998,206.39888810000002,left,-2.0,1,1,0.7876097000003028,307387,001,2023-09-06_23h31.07.459,adaptivestaircase,2023.1.3,59.949738139528954,
151,0.5,2.0,206.89866979999988,207.39885300000014,207.39885300000014,207.39885300000014,207.6992193000001,left,-2.0,1,1,0.33411570000043866,307387,001,2023-09-06_23h31.07.459,adaptivestaircase,2023.1.3,59.949738139528954,
152,0.5,2.0,207.76611150000008,208.26573169999983,208.26573169999983,208.26573169999983,208.56492879999996,left,-2.0,1,1,0.5133975000003375,307387,001,2023-09-06_23h31.07.459,adaptivestaircase,2023.1.3,59.949738139528954,
153,0.5,1.5,208.79837229999976,209.29863799999976,209.29863799999976,209.29863799999976,209.5987227999999,right,1.5,0,0,0.4746373000002677,307387,001,2023-09-06_23h31.07.459,adaptivestaircase,2023.1.3,59.949738139528954,
154,0.5,2.0,209.79860370000006,210.28213939999978,210.28213939999978,210.2977962,210.58235579999973,right,2.0,1,1,0.45281500000010055,307387,001,2023-09-06_23h31.07.459,adaptivestaircase,2023.1.3,59.949738139528954,
155,0.5,2.0,210.76560789999985,211.24835140000005,211.24835140000005,211.2649077000001,211.54861449999999,right,2.0,1,1,0.4474522000000434,307387,001,2023-09-06_23h31.07.459,adaptivestaircase,2023.1.3,59.949738139528954,
156,0.5,2.0,211.71481589999985,212.21485129999974,212.21485129999974,212.21485129999974,212.5144977,left,-2.0,1,1,0.5633753000001889,307387,001,2023-09-06_23h31.07.459,adaptivestaircase,2023.1.3,59.949738139528954,
157,0.5,1.5,212.79828210000005,213.29782539999997,213.29782539999997,213.29782539999997,213.59802379999974,left,-1.5,1,1,0.5604741000001923,307387,001,2023-09-06_23h31.07.459,adaptivestaircase,2023.1.3,59.949738139528954,
158,0.5,1.5,213.88116979999995,214.36467970000012,214.36467970000012,214.38158350000003,214.66497419999996,right,1.5,1,1,0.4441701999999168,307387,001,2023-09-06_23h31.07.459,adaptivestaircase,2023.1.3,59.949738139528954,
159,0.5,1.5,214.8316058999999,215.3147082999999,215.3147082999999,215.3311518999999,215.6147536999997,left,-1.5,1,1,1.0009633000004214,307387,001,2023-09-06_23h31.07.459,adaptivestaircase,2023.1.3,59.949738139528954,
160,0.5,1.0,216.34821609999972,216.83104009999988,216.83104009999988,216.84784660000014,217.13121150000006,right,1.0,1,1,0.6885247000000163,307387,001,2023-09-06_23h31.07.459,adaptivestaircase,2023.1.3,59.949738139528954,
161,0.5,1.0,217.54731679999986,218.0315760999997,218.0315760999997,218.04743580000013,218.33142559999987,right,1.0,0,0,0.30322360000036497,307387,001,2023-09-06_23h31.07.459,adaptivestaircase,2023.1.3,59.949738139528954,
162,0.5,1.5,218.3647946000001,218.8645631999998,218.8645631999998,218.8645631999998,219.16450209999994,left,-1.5,1,1,0.43648520000033386,307387,001,2023-09-06_23h31.07.459,adaptivestaircase,2023.1.3,59.949738139528954,
163,0.5,1.5,219.33139419999998,219.83167030000004,219.83167030000004,219.83167030000004,220.1317227999998,left,-1.5,1,1,0.40234360000022207,307387,001,2023-09-06_23h31.07.459,adaptivestaircase,2023.1.3,59.949738139528954,
164,0.5,1.5,220.26444420000007,220.76443100000006,220.76443100000006,220.76443100000006,221.06437469999992,right,1.5,1,1,0.5175257000000784,307387,001,2023-09-06_23h31.07.459,adaptivestaircase,2023.1.3,59.949738139528954,
165,0.5,1.0,221.29770569999982,221.79794140000013,221.79794140000013,221.79794140000013,222.09750200000008,left,-1.0,0,0,0.3932365000000573,307387,001,2023-09-06_23h31.07.459,adaptivestaircase,2023.1.3,59.949738139528954,
166,0.5,1.5,222.2142859999999,222.71438970000008,222.71438970000008,222.71438970000008,223.01445430000012,right,1.5,0,0,0.343738100000337,307387,001,2023-09-06_23h31.07.459,adaptivestaircase,2023.1.3,59.949738139528954,
167,0.5,2.0,223.08091049999985,223.58068670000011,223.58068670000011,223.58068670000011,223.88064559999975,left,-2.0,0,0,0.6350514000000658,307387,001,2023-09-06_23h31.07.459,adaptivestaircase,2023.1.3,59.949738139528954,
168,0.5,2.5,224.24770069999977,224.73049089999995,224.73049089999995,224.74767410000004,225.03062060000002,left,-2.5,0,0,0.41732590000037817,307387,001,2023-09-06_23h31.07.459,adaptivestaircase,2023.1.3,59.949738139528954,
169,0.5,3.0,225.18080499999996,225.68075629999976,225.68075629999976,225.68075629999976,225.98099439999987,left,-3.0,1,1,0.3152404000002207,307387,001,2023-09-06_23h31.07.459,adaptivestaircase,2023.1.3,59.949738139528954,
170,0.5,3.0,226.01406240000006,226.51364299999977,226.51364299999977,226.51364299999977,226.81394659999978,left,-3.0,1,1,0.4529825000004166,307387,001,2023-09-06_23h31.07.459,adaptivestaircase,2023.1.3,59.949738139528954,
171,0.5,3.0,226.9971956999998,227.4801192,227.4801192,227.49683779999987,227.78011979999974,right,3.0,1,1,0.705827500000396,307387,001,2023-09-06_23h31.07.459,adaptivestaircase,2023.1.3,59.949738139528954,
172,0.5,2.5,228.21352530000013,228.71345109999993,228.71345109999993,228.71345109999993,229.0135750999998,right,2.5,1,1,0.5657738000004429,307387,001,2023-09-06_23h31.07.459,adaptivestaircase,2023.1.3,59.949738139528954,
173,0.5,2.5,229.29675859999998,229.79694169999993,229.79694169999993,229.79694169999993,230.09645249999994,left,-2.5,0,0,0.7012776000001395,307387,001,2023-09-06_23h31.07.459,adaptivestaircase,2023.1.3,59.949738139528954,
174,0.5,3.0,230.52975960000003,231.01339599999983,231.01339599999983,231.0298576,231.3130874999997,left,-3.0,0,0,0.4389568000001418,307387,001,2023-09-06_23h31.07.459,adaptivestaircase,2023.1.3,59.949738139528954,
175,0.5,3.5,231.48005909999983,231.9795111999997,231.9795111999997,231.9795111999997,232.27941819999978,right,3.5,0,0,0.6406707999999526,307387,001,2023-09-06_23h31.07.459,adaptivestaircase,2023.1.3,59.949738139528954,
176,0.5,4.0,232.64602689999992,233.1461006999998,233.1461006999998,233.1461006999998,233.46142599999985,left,-4.0,1,1,0.30864040000005843,307387,001,2023-09-06_23h31.07.459,adaptivestaircase,2023.1.3,59.949738139528954,
177,0.5,4.0,233.47831240000005,233.96224189999975,233.96224189999975,233.97864859999981,,left,-4.0,1,1,0.07315550000021176,307387,001,2023-09-06_23h31.07.459,adaptivestaircase,2023.1.3,59.949738139528954,
178,0.5,4.0,234.0618844999999,234.56246340000007,234.56246340000007,234.56246340000007,234.86197429999993,right,4.0,0,0,0.5121205000000373,307387,001,2023-09-06_23h31.07.459,adaptivestaircase,2023.1.3,59.949738139528954,
179,0.5,4.5,235.09523360000003,235.5789046,235.5789046,235.59524740000006,235.87846309999986,right,4.5,1,1,0.6446154000000206,307387,001,2023-09-06_23h31.07.459,adaptivestaircase,2023.1.3,59.949738139528954,
180,0.5,4.5,236.24444360000007,236.72848049999993,236.72848049999993,236.74524100000008,237.02862539999978,left,-4.5,1,1,0.5852598999999827,307387,001,2023-09-06_23h31.07.459,adaptivestaircase,2023.1.3,59.949738139528954,
181,0.5,4.5,237.34550480000007,237.8447639000001,237.8447639000001,237.8447639000001,238.1457101000001,right,4.5,1,1,0.5361993000001348,307387,001,2023-09-06_23h31.07.459,adaptivestaircase,2023.1.3,59.949738139528954,
182,0.5,4.0,238.4116270999998,238.89541999999983,238.89541999999983,238.91236309999977,239.19560589999992,left,-4.0,1,1,0.48408169999993333,307387,001,2023-09-06_23h31.07.459,adaptivestaircase,2023.1.3,59.949738139528954,
183,0.5,4.0,239.4118082,239.9112501999998,239.9112501999998,239.9112501999998,240.21075930000006,right,4.0,0,0,0.418865900000128,307387,001,2023-09-06_23h31.07.459,adaptivestaircase,2023.1.3,59.949738139528954,
184,0.5,4.5,240.36134009999978,240.84433839999974,240.84433839999974,240.86126209999975,241.14523580000014,right,4.5,1,1,0.6616390000003776,307387,001,2023-09-06_23h31.07.459,adaptivestaircase,2023.1.3,59.949738139528954,
185,0.5,4.5,241.52756379999983,242.01163719999977,242.01163719999977,242.02855079999972,242.3113653999999,left,-4.5,1,1,0.5606864999999743,307387,001,2023-09-06_23h31.07.459,adaptivestaircase,2023.1.3,59.949738139528954,
186,0.5,4.5,242.5946326999997,243.09547070000008,243.09547070000008,243.09547070000008,243.39497200000005,left,-4.5,1,1,0.8292864999998528,307387,001,2023-09-06_23h31.07.459,adaptivestaircase,2023.1.3,59.949738139528954,
187,0.5,4.0,243.9445714999997,244.44459640000014,244.44459640000014,244.44459640000014,244.74449679999998,left,-4.0,1,1,0.931591699999899,307387,001,2023-09-06_23h31.07.459,adaptivestaircase,2023.1.3,59.949738139528954,
188,0.5,4.0,245.3945491999998,245.8942917999998,245.8942917999998,245.8942917999998,246.1948382999999,right,4.0,1,1,0.6360948999999891,307387,001,2023-09-06_23h31.07.459,adaptivestaircase,2023.1.3,59.949738139528954,
189,0.5,4.0,246.56085110000004,247.06065239999998,247.06065239999998,247.06065239999998,247.36075739999978,right,4.0,1,1,0.582886900000176,307387,001,2023-09-06_23h31.07.459,adaptivestaircase,2023.1.3,59.949738139528954,
190,0.5,3.5,247.6610413999997,248.1606351999999,248.1606351999999,248.1606351999999,248.46054809999987,left,-3.5,1,1,0.554537800000162,307387,001,2023-09-06_23h31.07.459,adaptivestaircase,2023.1.3,59.949738139528954,
191,0.5,3.5,248.7444249,249.2443543999998,249.2443543999998,249.2443543999998,249.54426289999992,right,3.5,1,1,0.8885042000001704,307387,001,2023-09-06_23h31.07.459,adaptivestaircase,2023.1.3,59.949738139528954,
192,0.5,3.5,250.16047170000002,250.66039629999977,250.66039629999977,250.66039629999977,250.9606561999999,right,3.5,0,0,0.6145258999999896,307387,001,2023-09-06_23h31.07.459,adaptivestaircase,2023.1.3,59.949738139528954,
193,0.5,4.0,251.2939054999997,251.79391369999985,251.79391369999985,251.79391369999985,252.09350540000014,right,4.0,1,1,0.765711999999894,307387,001,2023-09-06_23h31.07.459,adaptivestaircase,2023.1.3,59.949738139528954,
194,0.5,4.0,252.57676679999986,253.0767178000001,253.0767178000001,253.0767178000001,253.3765330000001,right,4.0,1,1,0.6189898000002358,307387,001,2023-09-06_23h31.07.459,adaptivestaircase,2023.1.3,59.949738139528954,
195,0.5,4.0,253.72698579999997,254.22693389999995,254.22693389999995,254.22693389999995,254.5268572,right,4.0,1,1,0.548667700000351,307387,001,2023-09-06_23h31.07.459,adaptivestaircase,2023.1.3,59.949738139528954,
196,0.5,3.5,254.7930824,255.2930421000001,255.2930421000001,255.2930421000001,255.5930171,left,-3.5,1,1,0.641377200000079,307387,001,2023-09-06_23h31.07.459,adaptivestaircase,2023.1.3,59.949738139528954,
197,0.5,3.5,255.95970469999975,256.4593986,256.4593986,256.4593986,256.75942959999975,left,-3.5,0,0,2.543311299999914,307387,001,2023-09-06_23h31.07.459,adaptivestaircase,2023.1.3,59.949738139528954,
198,0.5,4.0,259.0258936,259.5257381000001,259.5257381000001,259.5257381000001,259.82577459999993,right,4.0,1,1,0.6472014000000854,307387,001,2023-09-06_23h31.07.459,adaptivestaircase,2023.1.3,59.949738139528954,
199,0.5,4.0,260.1923425,260.69237539999995,260.69237539999995,260.69237539999995,260.9921277999997,left,-4.0,1,1,0.7672040000002198,307387,001,2023-09-06_23h31.07.459,adaptivestaircase,2023.1.3,59.949738139528954,
